File: data/LaB6/LaB6_synchrotron_XRD_from_28ID-2.xy
0.349857 15.4595
0.361437 16.9928
0.373016 20.8824
0.384595 21.991
0.396174 23.2393
0.407754 24.2454
0.419333 24.3973
0.430912 24.9067
0.442491 25.2859
0.454071 25.1484
0.46565 25.3891
0.477229 25.4012
0.488809 25.3305
0.500388 25.2877
0.511967 25.1862
0.523547 25.172
0.535126 25.2701
0.546705 25.2672
0.558284 25.27
0.569864 25.4258
0.581443 25.3853
0.593023 25.5053
0.604602 25.4086
0.616181 25.7572
0.627761 25.9568
0.63934 26.1192
0.650919 26.3183
0.662499 26.4804
0.674078 26.4692
0.685657 26.4079
0.697237 26.261
0.708816 26.0888
0.720396 25.7343
0.731975 25.4466
0.743555 25.2118
0.755134 24.8971
0.766713 24.8339
0.778293 24.605
0.789872 24.2989
0.801452 24.1345
0.813031 23.8626
0.824611 23.6337
0.83619 23.4623
0.84777 23.2956
0.859349 23.1626
0.870929 22.936
0.882508 22.7495
0.894088 22.6033
0.905667 22.3808
0.917247 22.2455
0.928827 22.0975
0.940406 21.946
0.951986 21.785
0.963565 21.7006
0.975145 21.6529
0.986724 21.5635
0.998304 21.397
1.00988 21.2737
1.02146 21.2453
1.03304 21.1542
1.04462 20.9768
1.0562 21.0164
1.06778 20.8981
1.07936 20.8301
1.09094 20.8866
1.10252 20.8221
1.1141 20.767
1.12568 20.7378
1.13726 20.6645
1.14884 20.6679
1.16042 20.6603
1.172 20.6736
1.18358 20.5769
1.19516 20.5314
1.20674 20.4923
1.21832 20.5163
1.2299 20.4968
1.24148 20.4825
1.25306 20.5583
1.26464 20.5152
1.27622 20.6287
1.2878 20.5248
1.29938 20.5092
1.31096 20.5513
1.32254 20.5242
1.33412 20.4861
1.3457 20.4518
1.35728 20.4415
1.36886 20.3978
1.38044 20.4194
1.39202 20.368
1.4036 20.3202
1.41518 20.2411
1.42676 20.2153
1.43834 20.1496
1.44992 20.1474
1.4615 20.1667
1.47308 20.1178
1.48466 20.0287
1.49624 19.9315
1.50782 19.922
1.5194 19.9531
1.53098 19.8748
1.54256 19.7368
1.55414 19.7515
1.56572 19.7141
1.5773 19.6891
1.58888 19.6874
1.60046 19.5966
1.61204 19.6061
1.62362 19.6018
1.6352 19.5093
1.64678 19.6042
1.65836 19.4983
1.66994 19.4941
1.68152 19.5231
1.6931 19.5119
1.70468 19.5397
1.71627 19.4493
1.72785 19.4301
1.73943 19.488
1.75101 19.5474
1.76259 19.517
1.77417 19.4239
1.78575 19.4238
1.79733 19.475
1.80891 19.4669
1.82049 19.4036
1.83207 19.3517
1.84365 19.4606
1.85523 19.4452
1.86681 19.4535
1.87839 19.4134
1.88997 19.3949
1.90156 19.2969
1.91314 19.387
1.92472 19.4442
1.9363 19.4717
1.94788 19.4059
1.95946 19.4076
1.97104 19.4533
1.98262 19.4409
1.9942 19.3421
2.00578 19.3103
2.01736 19.3436
2.02895 19.3224
2.04053 19.2469
2.05211 19.2691
2.06369 19.2283
2.07527 19.2198
2.08685 19.1513
2.09843 19.1038
2.11001 19.1331
2.12159 19.0796
2.13318 19.0558
2.14476 19.0213
2.15634 18.9617
2.16792 18.9582
2.1795 18.9176
2.19108 18.8553
2.20266 18.8726
2.21424 18.8705
2.22583 18.7996
2.23741 18.8058
2.24899 18.7651
2.26057 18.699
2.27215 18.6801
2.28373 18.687
2.29531 18.6209
2.3069 18.5572
2.31848 18.5043
2.33006 18.5355
2.34164 18.4716
2.35322 18.4741
2.3648 18.4651
2.37639 18.5294
2.38797 18.4626
2.39955 18.5461
2.41113 18.5698
2.42271 18.7123
2.43429 18.8368
2.44588 19.169
2.45746 19.9756
2.46904 23.5708
2.48062 94.7081
2.4922 383.89
2.50379 433.821
2.51537 129.947
2.52695 25.393
2.53853 19.822
2.55011 18.9074
2.5617 18.4447
2.57328 18.1278
2.58486 17.9377
2.59644 17.7628
2.60802 17.6198
2.61961 17.5029
2.63119 17.38
2.64277 17.2671
2.65435 17.2399
2.66594 17.088
2.67752 17.0565
2.6891 17.0458
2.70068 16.9299
2.71226 16.8905
2.72385 16.8625
2.73543 16.8194
2.74701 16.7537
2.75859 16.6697
2.77018 16.633
2.78176 16.6041
2.79334 16.6077
2.80492 16.536
2.81651 16.4156
2.82809 16.4369
2.83967 16.4071
2.85126 16.344
2.86284 16.2914
2.87442 16.2791
2.886 16.2704
2.89759 16.1955
2.90917 16.1318
2.92075 16.0887
2.93234 16.034
2.94392 16.0182
2.9555 15.9923
2.96709 16.0391
2.97867 15.9583
2.99025 15.9106
3.00183 15.8828
3.01342 15.8226
3.025 15.7727
3.03658 15.7879
3.04817 15.7611
3.05975 15.6669
3.07133 15.6373
3.08292 15.6302
3.0945 15.5751
3.10608 15.5176
3.11767 15.4295
3.12925 15.4548
3.14083 15.3963
3.15242 15.3758
3.164 15.306
3.17559 15.2371
3.18717 15.2527
3.19875 15.1644
3.21034 15.1255
3.22192 15.1537
3.2335 15.0862
3.24509 15.1002
3.25667 15.026
3.26826 14.9954
3.27984 14.9828
3.29142 14.9804
3.30301 14.9577
3.31459 14.9142
3.32618 14.8946
3.33776 14.9283
3.34934 14.8519
3.36093 14.8187
3.37251 14.8538
3.3841 14.8831
3.39568 14.9605
3.40726 14.9573
3.41885 15.0168
3.43043 15.0742
3.44202 15.1591
3.4536 15.3632
3.46519 15.7945
3.47677 16.2873
3.48836 17.2183
3.49994 20.2483
3.51152 64.6893
3.52311 436.971
3.53469 768.64
3.54628 430.547
3.55786 64.0685
3.56945 19.9041
3.58103 16.9034
3.59262 15.9084
3.6042 15.278
3.61579 14.9231
3.62737 14.6222
3.63896 14.4467
3.65054 14.2882
3.66213 14.1632
3.67371 13.9639
3.6853 13.9398
3.69688 13.8287
3.70847 13.7882
3.72005 13.7147
3.73164 13.6594
3.74322 13.6023
3.75481 13.4879
3.7664 13.4855
3.77798 13.4527
3.78957 13.427
3.80115 13.3587
3.81274 13.3607
3.82432 13.3509
3.83591 13.3492
3.84749 13.318
3.85908 13.2239
3.87067 13.1559
3.88225 13.0887
3.89384 13.0871
3.90542 13.0153
3.91701 13.0324
3.9286 13.0184
3.94018 12.9758
3.95177 12.9543
3.96335 12.9078
3.97494 12.888
3.98653 12.8643
3.99811 12.8661
4.0097 12.8893
4.02128 12.8813
4.03287 12.8311
4.04446 12.8539
4.05604 12.8589
4.06763 12.7803
4.07922 12.7825
4.0908 12.8057
4.10239 12.7854
4.11398 12.7136
4.12556 12.6853
4.13715 12.6294
4.14874 12.6481
4.16032 12.7112
4.17191 12.6858
4.1835 12.7359
4.19508 12.7046
4.20667 12.7937
4.21826 12.8
4.22985 12.8238
4.24143 12.8692
4.25302 13.0029
4.26461 13.2376
4.27619 13.5796
4.28778 14.2224
4.29937 17.8368
4.31096 79.3202
4.32254 275.786
4.33413 312.385
4.34572 114.521
4.35731 21.0818
4.36889 14.3312
4.38048 13.5124
4.39207 13.1478
4.40366 12.8369
4.41524 12.681
4.42683 12.5989
4.43842 12.521
4.45001 12.4316
4.4616 12.3894
4.47318 12.3271
4.48477 12.3186
4.49636 12.2312
4.50795 12.1812
4.51954 12.2425
4.53112 12.1995
4.54271 12.1495
4.5543 12.1402
4.56589 12.1168
4.57748 12.1461
4.58907 12.0479
4.60066 12.0115
4.61224 12.0887
4.62383 12.0769
4.63542 12.0277
4.64701 12.0609
4.6586 12.0607
4.67019 11.9789
4.68178 11.9583
4.69337 11.9763
4.70495 11.944
4.71654 11.9471
4.72813 11.8867
4.73972 11.8688
4.75131 11.8778
4.7629 11.8583
4.77449 11.9185
4.78608 11.926
4.79767 11.8459
4.80926 11.8529
4.82085 11.8747
4.83244 11.8866
4.84402 11.904
4.85561 11.9698
4.8672 11.9767
4.87879 11.9582
4.89038 11.9598
4.90197 12.0605
4.91356 12.0261
4.92515 12.1559
4.93674 12.28
4.94833 12.4938
4.95992 12.8619
4.97151 16.2908
4.9831 62.0927
4.99469 156.6
5.00628 152.91
5.01787 53.6117
5.02946 15.3857
5.04105 12.6901
5.05264 12.3747
5.06423 12.218
5.07583 12.0945
5.08742 12.038
5.09901 11.9799
5.1106 11.9127
5.12219 11.8337
5.13378 11.7834
5.14537 11.823
5.15696 11.7985
5.16855 11.822
5.18014 11.7805
5.19173 11.8109
5.20332 11.8089
5.21492 11.7537
5.22651 11.7052
5.2381 11.72
5.24969 11.7088
5.26128 11.6796
5.27287 11.7358
5.28446 11.7132
5.29606 11.7303
5.30765 11.7443
5.31924 11.746
5.33083 11.7245
5.34242 11.7258
5.35401 11.7536
5.36561 11.7321
5.3772 11.719
5.38879 11.7052
5.40038 11.7147
5.41197 11.7488
5.42357 11.7119
5.43516 11.7638
5.44675 11.8379
5.45834 11.848
5.46994 11.8675
5.48153 11.9316
5.49312 11.9891
5.50471 12.1187
5.51631 12.3095
5.5279 12.5528
5.53949 12.9523
5.55108 13.9497
5.56268 24.8848
5.57427 137.75
5.58586 334.944
5.59746 320.086
5.60905 106.902
5.62064 20.3297
5.63223 13.6766
5.64383 12.8118
5.65542 12.4267
5.66701 12.182
5.67861 11.9666
5.6902 11.8507
5.70179 11.8053
5.71339 11.679
5.72498 11.6164
5.73658 11.5982
5.74817 11.5351
5.75976 11.4712
5.77136 11.4836
5.78295 11.5174
5.79454 11.4328
5.80614 11.377
5.81773 11.357
5.82933 11.4018
5.84092 11.3551
5.85252 11.3703
5.86411 11.3823
5.8757 11.3559
5.8873 11.3273
5.89889 11.3468
5.91049 11.3743
5.92208 11.3766
5.93368 11.3394
5.94527 11.3458
5.95687 11.3243
5.96846 11.3598
5.98006 11.3967
5.99165 11.3408
6.00325 11.3522
6.01484 11.4416
6.02644 11.4711
6.03803 11.4715
6.04963 11.6062
6.06122 11.727
6.07282 11.9797
6.08441 12.4518
6.09601 17.8067
6.10761 74.4745
6.1192 176.33
6.1308 178.663
6.14239 73.8883
6.15399 17.47
6.16558 12.447
6.17718 11.9219
6.18878 11.687
6.20037 11.5503
6.21197 11.4033
6.22356 11.3518
6.23516 11.2925
6.24676 11.2595
6.25835 11.2128
6.26995 11.2253
6.28155 11.216
6.29314 11.2042
6.30474 11.1727
6.31634 11.1307
6.32793 11.1155
6.33953 11.1126
6.35113 11.0732
6.36273 11.1034
6.37432 11.0947
6.38592 11.0709
6.39752 11.0542
6.40911 11.0584
6.42071 11.0323
6.43231 10.9842
6.44391 11.0518
6.4555 11.0778
6.4671 11.0377
6.4787 11.0545
6.4903 11.0333
6.50189 11.0053
6.51349 11.0241
6.52509 11.0074
6.53669 10.9705
6.54829 11.0044
6.55988 11.0142
6.57148 10.9962
6.58308 10.9489
6.59468 10.9763
6.60628 10.974
6.61788 10.9862
6.62947 10.9733
6.64107 10.9744
6.65267 10.9671
6.66427 11.0033
6.67587 11.034
6.68747 10.9885
6.69907 10.9802
6.71067 11.0168
6.72227 10.9935
6.73386 11.0097
6.74546 11.0102
6.75706 10.969
6.76866 11.0335
6.78026 10.9865
6.79186 10.9831
6.80346 11.0089
6.81506 11.0014
6.82666 11.0137
6.83826 11.0144
6.84986 11.0139
6.86146 10.9957
6.87306 11.0056
6.88466 11.0211
6.89626 11.043
6.90786 11.0074
6.91946 11.0732
6.93106 11.0752
6.94266 11.0977
6.95426 11.0917
6.96586 11.128
6.97746 11.1329
6.98906 11.1519
7.00066 11.2323
7.01227 11.2639
7.02387 11.4095
7.03547 11.7075
7.04707 16.1363
7.05867 44.8556
7.07027 76.1095
7.08187 69.3145
7.09347 30.6658
7.10508 13.1759
7.11668 11.531
7.12828 11.3526
7.13988 11.294
7.15148 11.2361
7.16308 11.19
7.17468 11.13
7.18629 11.1503
7.19789 11.134
7.20949 11.1279
7.22109 11.1426
7.2327 11.1425
7.2443 11.1286
7.2559 11.15
7.2675 11.1482
7.27911 11.1848
7.29071 11.1403
7.30231 11.1632
7.31391 11.177
7.32552 11.1587
7.33712 11.1574
7.34872 11.1928
7.36033 11.1745
7.37193 11.2572
7.38353 11.2897
7.39514 11.3484
7.40674 11.3824
7.41834 11.4572
7.42995 11.5913
7.44155 11.7471
7.45315 12.0311
7.46476 12.9393
7.47636 25.7913
7.48796 104.66
7.49957 190.626
7.51117 177.916
7.52278 74.7286
7.53438 18.3912
7.54599 12.5621
7.55759 11.9418
7.56919 11.7621
7.5808 11.6175
7.5924 11.4776
7.60401 11.4077
7.61561 11.3338
7.62722 11.324
7.63882 11.2619
7.65043 11.2656
7.66203 11.2903
7.67364 11.2198
7.68524 11.2274
7.69685 11.2238
7.70845 11.1293
7.72006 11.101
7.73167 11.1312
7.74327 11.1081
7.75488 11.1433
7.76648 11.0883
7.77809 11.108
7.78969 11.1322
7.8013 11.1409
7.81291 11.2036
7.82451 11.2229
7.83612 11.2806
7.84772 11.3962
7.85933 11.5882
7.87094 12.19
7.88254 20.857
7.89415 71.499
7.90576 130.691
7.91736 127.924
7.92897 62.7513
7.94058 17.3433
7.95219 12.0174
7.96379 11.5678
7.9754 11.3818
7.98701 11.2669
7.99861 11.1393
8.01022 11.0664
8.02183 11.0313
8.03344 10.9631
8.04505 10.9729
8.05665 10.9397
8.06826 10.9314
8.07987 10.928
8.09148 10.9082
8.10309 10.9292
8.11469 10.9173
8.1263 10.9194
8.13791 10.8683
8.14952 10.8802
8.16113 10.9093
8.17274 10.9167
8.18434 10.9077
8.19595 10.9393
8.20756 10.9861
8.21917 11.0412
8.23078 11.116
8.24239 11.162
8.254 11.4029
8.26561 13.8178
8.27722 35.4437
8.28883 76.4975
8.30044 87.8634
8.31205 60.7295
8.32366 20.6279
8.33527 11.8334
8.34688 11.143
8.35849 10.9796
8.3701 10.9035
8.38171 10.8627
8.39332 10.8278
8.40493 10.8137
8.41654 10.7805
8.42815 10.7038
8.43976 10.6729
8.45137 10.6379
8.46298 10.6266
8.47459 10.6286
8.4862 10.5727
8.49781 10.582
8.50943 10.6035
8.52104 10.5704
8.53265 10.5412
8.54426 10.4905
8.55587 10.455
8.56748 10.4668
8.57909 10.4926
8.5907 10.5509
8.60232 10.5598
8.61393 10.548
8.62554 10.5767
8.63715 11.2668
8.64876 15.8167
8.66038 21.6325
8.67199 22.0885
8.6836 16.425
8.69521 11.2083
8.70683 10.4874
8.71844 10.4214
8.73005 10.4468
8.74167 10.4211
8.75328 10.4099
8.76489 10.4086
8.7765 10.4011
8.78812 10.3801
8.79973 10.3553
8.81135 10.3705
8.82296 10.3806
8.83457 10.3772
8.84619 10.3489
8.8578 10.3481
8.86941 10.3248
8.88103 10.3306
8.89264 10.3945
8.90426 10.4024
8.91587 10.3695
8.92748 10.3917
8.9391 10.4142
8.95071 10.409
8.96233 10.485
8.97394 10.592
8.98556 11.2059
8.99717 19.6354
9.00879 42.5035
9.0204 53.5909
9.03202 46.6859
9.04363 21.4126
9.05525 11.314
9.06686 10.5953
9.07848 10.4811
9.0901 10.437
9.10171 10.4057
9.11333 10.3655
9.12494 10.3828
9.13656 10.3592
9.14818 10.3636
9.15979 10.3334
9.17141 10.3019
9.18303 10.2986
9.19464 10.2694
9.20626 10.3597
9.21787 10.3029
9.22949 10.3354
9.24111 10.3092
9.25273 10.2952
9.26434 10.3636
9.27596 10.43
9.28758 10.4989
9.29919 10.5635
9.31081 10.8162
9.32243 11.3372
9.33405 19.4593
9.34567 58.6018
9.35728 93.731
9.3689 94.0545
9.38052 55.6488
9.39214 15.5627
9.40375 11.1222
9.41537 10.6551
9.42699 10.5171
9.43861 10.4433
9.45023 10.3984
9.46185 10.3471
9.47346 10.287
9.48508 10.2687
9.4967 10.2861
9.50832 10.1791
9.51994 10.1662
9.53156 10.1954
9.54318 10.138
9.5548 10.1352
9.56642 10.1839
9.57804 10.1679
9.58966 10.1547
9.60128 10.1575
9.6129 10.1112
9.62452 10.1736
9.63614 10.1618
9.64776 10.0943
9.65938 10.1139
9.671 10.1657
9.68262 10.1518
9.69424 10.1519
9.70586 10.1195
9.71748 10.1197
9.72911 10.1434
9.74073 10.1289
9.75235 10.0994
9.76397 10.131
9.77559 10.101
9.78721 10.0657
9.79883 10.0821
9.81045 10.0987
9.82208 10.124
9.8337 10.1
9.84532 10.0703
9.85694 10.0612
9.86856 10.1035
9.88019 10.0891
9.89181 10.1083
9.90343 10.0992
9.91505 10.1312
9.92668 10.1894
9.9383 10.1533
9.94992 10.2058
9.96155 10.2426
9.97317 10.3996
9.98479 12.7027
9.99642 19.4355
10.008 23.2374
10.0197 22.3033
10.0313 15.6735
10.0429 10.8235
10.0545 10.2737
10.0662 10.2089
10.0778 10.1951
10.0894 10.2038
10.101 10.1914
10.1127 10.2184
10.1243 10.1788
10.1359 10.212
10.1475 10.197
10.1592 10.2422
10.1708 10.2163
10.1824 10.1673
10.194 10.2514
10.2057 10.2667
10.2173 10.299
10.2289 10.3634
10.2405 10.3441
10.2522 10.4013
10.2638 10.521
10.2754 10.7749
10.287 13.698
10.2987 35.3114
10.3103 64.3823
10.3219 70.9944
10.3335 59.5074
10.3452 23.7226
10.3568 11.4563
10.3684 10.6979
10.38 10.5179
10.3917 10.395
10.4033 10.3395
10.4149 10.3116
10.4266 10.272
10.4382 10.2683
10.4498 10.2402
10.4614 10.2509
10.4731 10.2415
10.4847 10.2479
10.4963 10.2666
10.5079 10.2988
10.5196 10.3328
10.5312 10.257
10.5428 10.3141
10.5545 10.3899
10.5661 10.4857
10.5777 10.7226
10.5893 14.7531
10.601 35.5163
10.6126 54.8904
10.6242 57.4451
10.6359 45.4659
10.6475 17.8181
10.6591 11.0417
10.6707 10.5453
10.6824 10.4038
10.694 10.3433
10.7056 10.3236
10.7173 10.2659
10.7289 10.2356
10.7405 10.1948
10.7522 10.2368
10.7638 10.2278
10.7754 10.2196
10.7871 10.2091
10.7987 10.2014
10.8103 10.1995
10.8219 10.2233
10.8336 10.2401
10.8452 10.2873
10.8568 10.2973
10.8685 10.3178
10.8801 11.6005
10.8917 18.7686
10.9034 26.5474
10.915 28.0637
10.9266 24.4182
10.9383 14.2235
10.9499 10.5108
10.9615 10.2915
10.9732 10.2337
10.9848 10.2839
10.9964 10.2779
11.0081 10.1654
11.0197 10.1652
11.0313 10.2051
11.043 10.2055
11.0546 10.1577
11.0662 10.199
11.0779 10.169
11.0895 10.1805
11.1011 10.213
11.1128 10.2016
11.1244 10.3183
11.136 10.2887
11.1477 10.362
11.1593 10.8413
11.1709 16.5822
11.1826 28.8288
11.1942 33.9118
11.2058 32.7788
11.2175 22.8128
11.2291 11.8333
11.2407 10.4646
11.2524 10.3818
11.264 10.2636
11.2756 10.2196
11.2873 10.2783
11.2989 10.258
11.3105 10.2679
11.3222 10.2637
11.3338 10.2868
11.3455 10.2532
11.3571 10.2891
11.3687 10.3274
11.3804 10.326
11.392 10.2949
11.4036 10.379
11.4153 10.4228
11.4269 10.6592
11.4385 12.1539
11.4502 26.8071
11.4618 49.5626
11.4735 56.4689
11.4851 53.4346
11.4967 32.0635
11.5084 12.695
11.52 10.7337
11.5316 10.5258
11.5433 10.4732
11.5549 10.4032
11.5666 10.339
11.5782 10.3242
11.5898 10.3265
11.6015 10.2581
11.6131 10.228
11.6248 10.2779
11.6364 10.273
11.648 10.2522
11.6597 10.2491
11.6713 10.3001
11.683 10.328
11.6946 10.3669
11.7062 10.6932
11.7179 14.8165
11.7295 25.6074
11.7412 30.85
11.7528 30.7667
11.7644 24.4057
11.7761 12.8286
11.7877 10.4831
11.7994 10.3696
11.811 10.2696
11.8226 10.2224
11.8343 10.2516
11.8459 10.2341
11.8576 10.1854
11.8692 10.2162
11.8808 10.2728
11.8925 10.2018
11.9041 10.2308
11.9158 10.2231
11.9274 10.2153
11.9391 10.157
11.9507 10.1302
11.9623 10.1421
11.974 10.1298
11.9856 10.1857
11.9973 10.179
12.0089 10.1657
12.0206 10.1746
12.0322 10.182
12.0438 10.23
12.0555 10.1939
12.0671 10.2399
12.0788 10.1618
12.0904 10.2116
12.1021 10.1907
12.1137 10.1929
12.1253 10.2123
12.137 10.1932
12.1486 10.1949
12.1603 10.2967
12.1719 10.2365
12.1836 10.2752
12.1952 10.3661
12.2069 10.3517
12.2185 10.3964
12.2302 10.5651
12.2418 12.5553
12.2534 17.9392
12.2651 20.9415
12.2767 21.0247
12.2884 18.1021
12.3 12.2163
12.3117 10.54
12.3233 10.414
12.335 10.3603
12.3466 10.4027
12.3583 10.3918
12.3699 10.4003
12.3816 10.3639
12.3932 10.3688
12.4048 10.3641
12.4165 10.4099
12.4281 10.4372
12.4398 10.4356
12.4514 10.4217
12.4631 10.4242
12.4747 10.4384
12.4864 10.7837
12.498 13.5585
12.5097 18.8402
12.5213 21.0657
12.533 20.8542
12.5446 17.4512
12.5563 11.819
12.5679 10.6247
12.5796 10.5809
12.5912 10.5036
12.6029 10.4502
12.6145 10.5681
12.6262 10.5451
12.6378 10.5119
12.6495 10.5623
12.6611 10.5609
12.6728 10.5553
12.6844 10.5777
12.6961 10.6952
12.7077 10.8036
12.7194 10.8149
12.731 11.2586
12.7427 16.9889
12.7543 37.5055
12.766 49.7419
12.7776 51.2732
12.7893 46.139
12.8009 24.6611
12.8126 11.9852
12.8242 10.9789
12.8359 10.8536
12.8475 10.7744
12.8592 10.7396
12.8708 10.7316
12.8825 10.7034
12.8942 10.6824
12.9058 10.6639
12.9175 10.6615
12.9291 10.6676
12.9408 10.6944
12.9524 10.7505
12.9641 10.7913
12.9757 11.0402
12.9874 13.5033
12.999 22.2491
13.0107 27.648
13.0223 28.4192
13.034 26.0241
13.0457 16.9007
13.0573 11.3173
13.069 10.8204
13.0806 10.7418
13.0923 10.7732
13.1039 10.7463
13.1156 10.7126
13.1272 10.6667
13.1389 10.6555
13.1505 10.6202
13.1622 10.695
13.1739 10.6832
13.1855 10.624
13.1972 10.5501
13.2088 10.5691
13.2205 10.6069
13.2321 10.5905
13.2438 10.6006
13.2555 10.6846
13.2671 10.6655
13.2788 10.6666
13.2904 10.6908
13.3021 10.6628
13.3137 10.6601
13.3254 10.6823
13.3371 10.7411
13.3487 10.7021
13.3604 10.6934
13.372 10.7305
13.3837 10.7674
13.3954 10.7384
13.407 10.7937
13.4187 10.8368
13.4303 10.8457
13.442 10.994
13.4536 11.4821
13.4653 17.8831
13.477 33.0885
13.4886 39.7598
13.5003 40.4297
13.5119 36.215
13.5236 20.5778
13.5353 11.7011
13.5469 10.9992
13.5586 10.9447
13.5702 10.9198
13.5819 10.8401
13.5936 10.845
13.6052 10.8151
13.6169 10.755
13.6286 10.7993
13.6402 10.7846
13.6519 10.8117
13.6635 10.8238
13.6752 10.8055
13.6869 11.0924
13.6985 13.642
13.7102 18.8623
13.7219 21.1776
13.7335 21.2948
13.7452 19.1964
13.7568 13.7288
13.7685 11.0347
13.7802 10.8535
13.7918 10.8439
13.8035 10.836
13.8152 10.822
13.8268 10.807
13.8385 10.8501
13.8501 10.8235
13.8618 10.7586
13.8735 10.7363
13.8851 10.7669
13.8968 10.8128
13.9085 10.801
13.9201 10.7658
13.9318 10.776
13.9435 10.8532
13.9551 10.7425
13.9668 10.7466
13.9785 10.7498
13.9901 10.7712
14.0018 10.743
14.0135 10.7738
14.0251 10.8094
14.0368 10.8201
14.0485 10.8274
14.0601 10.8327
14.0718 10.8584
14.0835 10.8715
14.0951 10.8841
14.1068 10.8959
14.1185 10.8791
14.1301 10.9191
14.1418 11.1309
14.1535 12.7532
14.1651 15.2332
14.1768 16.2413
14.1885 16.1644
14.2001 14.8176
14.2118 12.1073
14.2235 11.0424
14.2352 10.9431
14.2468 10.8989
14.2585 10.9914
14.2702 11.0135
14.2818 10.9548
14.2935 10.9545
14.3052 10.9555
14.3168 11.0025
14.3285 11.0674
14.3402 11.0894
14.3518 11.1989
14.3635 12.086
14.3752 18.6127
14.3869 27.1662
14.3985 29.5465
14.4102 29.4693
14.4219 25.6842
14.4335 15.565
14.4452 11.43
14.4569 11.1074
14.4686 11.0952
14.4802 11.0744
14.4919 11.0333
14.5036 11.0298
14.5153 11.0195
14.5269 11.0556
14.5386 11.0926
14.5503 11.1158
14.5619 11.1836
14.5736 11.2659
14.5853 13.328
14.597 21.5523
14.6086 27.6067
14.6203 28.9306
14.632 28.1946
14.6437 22.7129
14.6553 13.4745
14.667 11.3455
14.6787 11.2352
14.6904 11.1738
14.702 11.1553
14.7137 11.0902
14.7254 11.0893
14.7371 11.077
14.7487 11.0926
14.7604 11.045
14.7721 11.1069
14.7838 11.1752
14.7954 11.7327
14.8071 16.165
14.8188 22.7239
14.8305 24.9568
14.8421 25.0615
14.8538 22.7354
14.8655 15.6416
14.8772 11.5282
14.8889 11.1955
14.9005 11.1774
14.9122 11.1249
14.9239 11.0855
14.9356 11.0355
14.9472 11.0461
14.9589 11.0787
14.9706 11.1309
14.9823 11.1723
14.994 11.176
15.0056 11.4302
15.0173 13.5459
15.029 17.3217
15.0407 19.1386
15.0524 19.1495
15.064 17.9948
15.0757 14.2595
15.0874 11.529
15.0991 11.1511
15.1108 11.1068
15.1224 11.0535
15.1341 11.1016
15.1458 11.1815
15.1575 11.1164
15.1692 11.1627
15.1808 11.1136
15.1925 11.1402
15.2042 11.1315
15.2159 11.3769
15.2276 12.8136
15.2393 14.8
15.2509 15.4741
15.2626 15.5151
15.2743 14.752
15.286 12.5884
15.2977 11.2987
15.3094 11.1448
15.321 11.1639
15.3327 11.2052
15.3444 11.1467
15.3561 11.1927
15.3678 11.2329
15.3795 11.2564
15.3911 11.3619
15.4028 11.3932
15.4145 11.3081
15.4262 13.0503
15.4379 19.3033
15.4496 23.8746
15.4612 24.7108
15.4729 24.3619
15.4846 20.5821
15.4963 13.6326
15.508 11.5111
15.5197 11.3406
15.5314 11.3498
15.5431 11.2661
15.5547 11.273
15.5664 11.2327
15.5781 11.183
15.5898 11.2487
15.6015 11.2733
15.6132 11.164
15.6249 11.1413
15.6365 11.223
15.6482 11.2483
15.6599 11.2353
15.6716 11.2881
15.6833 11.2871
15.695 11.2332
15.7067 11.2837
15.7184 11.2431
15.7301 11.2089
15.7417 11.3104
15.7534 11.2916
15.7651 11.3119
15.7768 11.3649
15.7885 11.4107
15.8002 11.2976
15.8119 11.2693
15.8236 11.4818
15.8353 12.8413
15.847 15.3756
15.8586 16.4319
15.8703 16.6626
15.882 16.1301
15.8937 13.9212
15.9054 11.6832
15.9171 11.3396
15.9288 11.248
15.9405 11.2786
15.9522 11.2714
15.9639 11.3534
15.9756 11.4166
15.9873 11.4194
15.999 11.4321
16.0106 11.57
16.0223 12.0996
16.034 16.8328
16.0457 25.372
16.0574 28.8897
16.0691 29.2437
16.0808 28.0481
16.0925 20.6778
16.1042 12.8729
16.1159 11.5319
16.1276 11.4204
16.1393 11.402
16.151 11.3797
16.1627 11.4184
16.1744 11.4854
16.1861 11.4579
16.1978 11.3178
16.2095 11.4481
16.2211 11.8084
16.2328 13.8594
16.2445 16.9191
16.2562 17.9807
16.2679 17.8657
16.2796 16.9303
16.2913 13.9154
16.303 11.6705
16.3147 11.5175
16.3264 11.4628
16.3381 11.3155
16.3498 11.4045
16.3615 11.3565
16.3732 11.4469
16.3849 11.6034
16.3966 11.0639
16.4083 11.0544
16.42 11.9508
16.4317 13.4241
16.4434 14.48
16.4551 14.6056
16.4668 14.4401
16.4785 13.5139
16.4902 11.5161
16.5019 11.7852
16.5136 11.4046
16.5253 10.9736
16.537 10.9968
16.5487 10.5205
16.5604 11.3321
16.5721 11.2725
16.5838 11.1104
16.5955 11.4356
16.6072 11.4666
16.6189 12.1195
16.6306 13.8721
16.6423 14.0563
16.654 14.6496
16.6657 13.498
16.6774 12.4043
16.6891 11.3463
16.7008 11.1237
16.7125 11.384
16.7242 11.338
16.7359 11.1437
16.7476 10.9505
16.7594 11.2479
16.7711 11.8911
16.7828 11.6079
16.7945 11.3124
16.8062 15.1879
16.8179 20.3585
16.8296 22.332
16.8413 22.898
16.853 22.1495
16.8647 17.5632
16.8764 12.652
16.8881 11.3201
16.8998 11.3302
16.9115 10.3861
16.9232 10.7513
16.9349 10.9112
16.9466 10.8222
16.9584 10.7203
16.9634 11.273